# %ECSV 1.0
# ---
# datatype:
# - {name: WAV, unit: Angstrom, datatype: float32}
# - {name: EFF, unit: electron / ph, datatype: float64}
# - {name: EFF_UNC, datatype: float64}
# meta: !!omap
# - {CWAV: '7000'}
# - {FILTER: GG455}
# - {GRATING: 1200G}
# - {GRISM: none}
# - {MODE: spectroscopic}
# - {DICHROIC: none}
# schema: astropy-2.0
WAV EFF EFF_UNC
5645.35 0.11025 0.00162
5647.99 0.11088 0.00163
5650.63 0.1115 0.00164
5653.6 0.1122 0.00165
5656.24 0.11283 0.00166
5658.88 0.11345 0.00166
5661.52 0.11407 0.00167
5664.16 0.11469 0.00168
5667.13 0.11538 0.00169
5669.77 0.116 0.0017
5672.41 0.11662 0.00171
5675.05 0.11723 0.00172
5677.69 0.11784 0.00173
5680.33 0.11845 0.00174
5683.3 0.11913 0.00176
5685.94 0.11974 0.00177
5688.58 0.12035 0.00178
5691.22 0.12095 0.00179
5693.86 0.12155 0.0018
5696.83 0.12223 0.00181
5699.47 0.12283 0.00182
5702.11 0.12343 0.00183
5704.75 0.12403 0.00185
5707.39 0.12462 0.00186
5710.36 0.12529 0.00187
5713.0 0.12588 0.00188
5715.64 0.12647 0.00189
5718.28 0.12706 0.0019
5720.92 0.12765 0.00192
5723.56 0.12824 0.00193
5726.53 0.12889 0.00194
5729.17 0.12948 0.00195
5731.81 0.13006 0.00197
5734.45 0.13064 0.00198
5737.09 0.13122 0.00199
5740.06 0.13187 0.002
5742.7 0.13244 0.00202
5745.34 0.13302 0.00203
5747.98 0.13359 0.00204
5750.62 0.13416 0.00205
5753.59 0.13481 0.00207
5756.23 0.13537 0.00208
5758.87 0.13594 0.00209
5761.51 0.13651 0.00211
5764.15 0.13707 0.00212
5766.79 0.13764 0.00213
5769.76 0.13827 0.00215
5772.4 0.13883 0.00216
5775.04 0.13939 0.00217
5777.68 0.13994 0.00218
5780.32 0.1405 0.0022
5783.29 0.14112 0.00221
5785.93 0.14168 0.00222
5788.57 0.14223 0.00224
5791.21 0.14278 0.00225
5793.85 0.14333 0.00226
5796.82 0.14394 0.00227
5799.46 0.14449 0.00229
5802.1 0.14503 0.0023
5804.74 0.14558 0.00231
5807.38 0.14612 0.00232
5810.02 0.14666 0.00234
5812.99 0.14726 0.00235
5815.63 0.1478 0.00236
5818.27 0.14834 0.00238
5820.91 0.14887 0.00239
5823.55 0.1494 0.0024
5826.52 0.15 0.00242
5829.16 0.15053 0.00243
5831.8 0.15106 0.00244
5834.44 0.15159 0.00245
5837.08 0.15211 0.00246
5840.05 0.1527 0.00248
5842.69 0.15323 0.00249
5845.33 0.15375 0.0025
5847.97 0.15427 0.00251
5850.61 0.15479 0.00253
5853.25 0.15531 0.00254
5856.22 0.15589 0.00255
5858.86 0.1564 0.00256
5861.5 0.15691 0.00258
5864.14 0.15743 0.00259
5866.78 0.15794 0.0026
5869.75 0.15851 0.00261
5872.39 0.15902 0.00263
5875.03 0.15952 0.00264
5877.67 0.16003 0.00265
5880.31 0.16053 0.00266
5883.28 0.1611 0.00267
5885.92 0.1616 0.00269
5888.56 0.1621 0.0027
5891.2 0.16259 0.00271
5893.84 0.16309 0.00272
5896.48 0.16359 0.00273
5899.45 0.16414 0.00274
5902.09 0.16463 0.00276
5904.73 0.16512 0.00277
5907.37 0.16561 0.00278
5910.01 0.1661 0.00279
5912.98 0.16665 0.0028
5915.62 0.16714 0.00281
5918.26 0.16762 0.00282
5920.9 0.1681 0.00284
5923.54 0.16858 0.00285
5926.51 0.16912 0.00286
5929.15 0.1696 0.00287
5931.79 0.17008 0.00288
5934.43 0.17056 0.00289
5937.07 0.17103 0.0029
5939.71 0.1715 0.00291
5942.68 0.17204 0.00292
5945.32 0.17251 0.00294
5947.96 0.17297 0.00295
5950.6 0.17344 0.00296
5953.24 0.17391 0.00297
5956.21 0.17443 0.00298
5958.85 0.1749 0.00299
5961.49 0.17536 0.003
5964.13 0.17582 0.00301
5966.77 0.17628 0.00302
5969.74 0.1768 0.00303
5972.38 0.17725 0.00304
5975.02 0.17771 0.00305
5977.66 0.17816 0.00306
5980.3 0.17861 0.00307
5982.94 0.17907 0.00308
5985.91 0.17957 0.00309
5988.55 0.18002 0.0031
5991.19 0.18047 0.00311
5993.83 0.18092 0.00312
5996.47 0.18136 0.00313
5999.44 0.18186 0.00314
6002.08 0.1823 0.00315
6004.72 0.18274 0.00316
6007.36 0.18318 0.00317
6010.0 0.18362 0.00318
6012.97 0.18411 0.00319
6015.61 0.18455 0.0032
6018.25 0.18498 0.00321
6020.89 0.18542 0.00321
6023.53 0.18585 0.00322
6026.5 0.18633 0.00323
6029.14 0.18676 0.00324
6031.78 0.18719 0.00325
6034.42 0.18762 0.00326
6037.06 0.18804 0.00327
6039.7 0.18846 0.00328
6042.67 0.18894 0.00329
6045.31 0.18936 0.0033
6047.95 0.18978 0.0033
6050.59 0.1902 0.00331
6053.23 0.19062 0.00332
6056.2 0.19109 0.00333
6058.84 0.1915 0.00334
6061.48 0.19191 0.00335
6064.12 0.19233 0.00335
6066.76 0.19274 0.00336
6069.73 0.1932 0.00337
6072.37 0.19361 0.00338
6075.01 0.19401 0.00339
6077.65 0.19442 0.0034
6080.29 0.19482 0.0034
6082.93 0.19523 0.00341
6085.9 0.19568 0.00342
6088.54 0.19608 0.00343
6091.18 0.19648 0.00344
6093.82 0.19687 0.00344
6096.46 0.19727 0.00345
6099.43 0.19772 0.00346
6102.07 0.19811 0.00347
6104.71 0.1985 0.00347
6107.35 0.19889 0.00348
6109.99 0.19929 0.00349
6112.96 0.19972 0.0035
6115.6 0.20011 0.0035
6118.24 0.2005 0.00351
6120.88 0.20088 0.00352
6123.52 0.20127 0.00352
6126.16 0.20165 0.00353
6129.13 0.20208 0.00354
6131.77 0.20246 0.00354
6134.41 0.20284 0.00355
6137.05 0.20321 0.00356
6139.69 0.20359 0.00356
6142.66 0.20401 0.00357
6145.3 0.20439 0.00358
6147.94 0.20476 0.00359
6150.58 0.20513 0.00359
6153.22 0.2055 0.0036
6156.19 0.20591 0.0036
6158.83 0.20628 0.00361
6161.47 0.20665 0.00362
6164.11 0.20701 0.00362
6166.75 0.20738 0.00363
6169.39 0.20774 0.00364
6172.36 0.20815 0.00364
6175.0 0.20851 0.00365
6177.64 0.20887 0.00365
6180.28 0.20922 0.00366
6182.92 0.20958 0.00367
6185.89 0.20998 0.00367
6188.53 0.21033 0.00368
6191.17 0.21069 0.00368
6193.81 0.21104 0.00369
6196.45 0.21139 0.00369
6199.42 0.21178 0.0037
6202.06 0.21213 0.00371
6204.7 0.21247 0.00371
6207.34 0.21282 0.00372
6209.98 0.21316 0.00372
6212.62 0.21351 0.00373
6215.59 0.21389 0.00373
6218.23 0.21423 0.00374
6220.87 0.21457 0.00374
6223.51 0.21491 0.00375
6226.15 0.21524 0.00375
6229.12 0.21562 0.00376
6231.76 0.21596 0.00376
6234.4 0.21629 0.00377
6237.04 0.21662 0.00377
6239.68 0.21695 0.00378
6242.65 0.21732 0.00378
6245.29 0.21765 0.00379
6247.93 0.21798 0.00379
6250.57 0.2183 0.0038
6253.21 0.21863 0.0038
6255.85 0.21895 0.0038
6258.82 0.21931 0.00381
6261.46 0.21963 0.00381
6264.1 0.21995 0.00382
6266.74 0.22027 0.00382
6269.38 0.22059 0.00383
6272.35 0.22095 0.00383
6274.99 0.22126 0.00384
6277.63 0.22158 0.00384
6280.27 0.22187 0.00384
6282.91 0.22217 0.00385
6285.88 0.22251 0.00385
6288.52 0.22281 0.00385
6291.16 0.22311 0.00386
6293.8 0.22341 0.00386
6296.44 0.22371 0.00386
6299.08 0.22401 0.00387
6302.05 0.22434 0.00387
6304.69 0.22464 0.00387
6307.33 0.22494 0.00388
6309.97 0.22524 0.00388
6312.61 0.22554 0.00388
6315.58 0.22587 0.00389
6318.22 0.22617 0.00389
6320.86 0.22647 0.0039
6323.5 0.22677 0.0039
6326.14 0.22707 0.0039
6329.11 0.22741 0.00391
6331.75 0.22771 0.00391
6334.39 0.22801 0.00391
6337.03 0.2283 0.00392
6339.67 0.2286 0.00392
6342.64 0.22894 0.00392
6345.28 0.22922 0.00393
6347.92 0.22951 0.00393
6350.56 0.22979 0.00393
6353.2 0.23007 0.00394
6355.84 0.23035 0.00394
6358.81 0.23066 0.00394
6361.45 0.23094 0.00394
6364.09 0.23122 0.00395
6366.73 0.23149 0.00395
6369.37 0.23177 0.00395
6372.34 0.23208 0.00395
6374.98 0.23235 0.00396
6377.62 0.23262 0.00396
6380.26 0.23289 0.00396
6382.9 0.23316 0.00396
6385.87 0.23346 0.00397
6388.51 0.23372 0.00397
6391.15 0.23399 0.00397
6393.79 0.23425 0.00397
6396.43 0.23452 0.00397
6399.07 0.23478 0.00398
6402.04 0.23507 0.00398
6404.68 0.23533 0.00398
6407.32 0.23559 0.00398
6409.96 0.23584 0.00399
6412.6 0.2361 0.00399
6415.57 0.23639 0.00399
6418.21 0.23664 0.00399
6420.85 0.23689 0.00399
6423.49 0.23715 0.00399
6426.13 0.2374 0.004
6429.1 0.23768 0.004
6431.74 0.23792 0.004
6434.38 0.23817 0.004
6437.02 0.23842 0.004
6439.66 0.23866 0.004
6442.3 0.23891 0.00401
6445.27 0.23918 0.00401
6447.91 0.23942 0.00401
6450.55 0.23966 0.00401
6453.19 0.2399 0.00401
6455.83 0.24014 0.00401
6458.8 0.24041 0.00401
6461.44 0.24064 0.00402
6464.08 0.24088 0.00402
6466.72 0.24111 0.00402
6469.36 0.24134 0.00402
6472.33 0.2416 0.00402
6474.97 0.24184 0.00402
6477.61 0.24206 0.00402
6480.25 0.24229 0.00402
6482.89 0.24252 0.00402
6485.53 0.24275 0.00402
6488.5 0.243 0.00403
6491.14 0.24322 0.00403
6493.78 0.24345 0.00403
6496.42 0.24367 0.00403
6499.06 0.24389 0.00403
6502.03 0.24414 0.00403
6504.67 0.24436 0.00403
6507.31 0.24457 0.00403
6509.95 0.24479 0.00403
6512.59 0.24501 0.00403
6515.56 0.24525 0.00403
6518.2 0.24546 0.00403
6520.84 0.24567 0.00403
6523.48 0.24588 0.00403
6526.12 0.24609 0.00403
6528.76 0.2463 0.00404
6531.73 0.24654 0.00404
6534.37 0.24674 0.00404
6537.01 0.24695 0.00404
6539.65 0.24715 0.00404
6542.29 0.24734 0.00404
6545.26 0.24756 0.00404
6547.9 0.24775 0.00404
6550.54 0.24794 0.00404
6553.18 0.24813 0.00404
6555.82 0.24832 0.00404
6558.79 0.24853 0.00403
6561.43 0.24872 0.00403
6564.07 0.24891 0.00403
6566.71 0.2491 0.00403
6569.35 0.24929 0.00403
6571.99 0.24948 0.00403
6574.96 0.2497 0.00403
6577.6 0.24989 0.00403
6580.24 0.25008 0.00403
6582.88 0.25027 0.00403
6585.52 0.25046 0.00403
6588.49 0.25067 0.00403
6591.13 0.25086 0.00403
6593.77 0.25105 0.00403
6596.41 0.25124 0.00403
6599.05 0.25143 0.00403
6602.02 0.25165 0.00403
6604.66 0.25184 0.00403
6607.3 0.25203 0.00403
6609.94 0.25222 0.00403
6612.58 0.25241 0.00403
6615.22 0.25258 0.00403
6618.19 0.25278 0.00403
6620.83 0.25295 0.00403
6623.47 0.25313 0.00403
6626.11 0.2533 0.00403
6628.75 0.25347 0.00403
6631.72 0.25366 0.00403
6634.36 0.25383 0.00403
6637.0 0.254 0.00403
6639.64 0.25416 0.00403
6642.28 0.25433 0.00403
6645.25 0.25451 0.00402
6647.89 0.25468 0.00402
6650.53 0.25484 0.00402
6653.17 0.255 0.00402
6655.81 0.25516 0.00402
6658.78 0.25534 0.00402
6661.42 0.2555 0.00402
6664.06 0.25566 0.00402
6666.7 0.25581 0.00402
6669.34 0.25597 0.00402
6671.98 0.25613 0.00402
6674.95 0.2563 0.00401
6677.59 0.25645 0.00401
6680.23 0.2566 0.00401
6682.87 0.25675 0.00401
6685.51 0.2569 0.00401
6688.48 0.25707 0.00401
6691.12 0.25722 0.00401
6693.76 0.25736 0.00401
6696.4 0.25751 0.00401
6699.04 0.25765 0.004
6702.01 0.25782 0.004
6704.65 0.25796 0.004
6707.29 0.2581 0.004
6709.93 0.25824 0.004
6712.57 0.25838 0.004
6715.21 0.25852 0.004
6718.18 0.25868 0.00399
6720.82 0.25881 0.00399
6723.46 0.25895 0.00399
6726.1 0.25908 0.00399
6728.74 0.25922 0.00399
6731.71 0.25937 0.00399
6734.35 0.2595 0.00399
6736.99 0.25963 0.00398
6739.63 0.25976 0.00398
6742.27 0.25989 0.00398
6745.24 0.26003 0.00398
6747.88 0.26016 0.00398
6750.52 0.26029 0.00398
6753.16 0.26041 0.00397
6755.8 0.26054 0.00397
6758.44 0.26066 0.00397
6761.41 0.2608 0.00397
6764.05 0.26092 0.00397
6766.69 0.26104 0.00397
6769.33 0.26116 0.00396
6771.97 0.26128 0.00396
6774.94 0.26141 0.00396
6777.58 0.26153 0.00396
6780.22 0.26165 0.00396
6782.86 0.26176 0.00396
6785.5 0.26188 0.00395
6788.47 0.262 0.00395
6791.11 0.26212 0.00395
6793.75 0.26223 0.00395
6796.39 0.26234 0.00395
6799.03 0.26245 0.00394
6801.67 0.26256 0.00394
6804.64 0.26268 0.00394
6807.28 0.26278 0.00394
6809.92 0.26289 0.00394
6812.56 0.26299 0.00393
6815.2 0.2631 0.00393
6818.17 0.26321 0.00393
6820.81 0.26332 0.00393
6823.45 0.26342 0.00393
6826.09 0.26352 0.00392
6828.73 0.26362 0.00392
6831.7 0.26373 0.00392
6834.34 0.26383 0.00392
6836.98 0.26392 0.00392
6839.62 0.26402 0.00391
6842.26 0.26408 0.00391
6844.9 0.26415 0.00391
6847.87 0.26422 0.0039
6850.51 0.26428 0.0039
6853.15 0.26435 0.0039
6855.79 0.26441 0.0039
6858.43 0.26448 0.00389
6861.4 0.26455 0.00389
6864.04 0.26461 0.00389
6866.68 0.26468 0.00388
6869.32 0.26474 0.00388
6871.96 0.26481 0.00388
6874.93 0.26488 0.00388
6877.57 0.26494 0.00387
6880.21 0.26501 0.00387
6882.85 0.26507 0.00387
6885.49 0.26514 0.00387
6888.13 0.2652 0.00386
6891.1 0.26527 0.00386
6893.74 0.26534 0.00386
6896.38 0.2654 0.00385
6899.02 0.26547 0.00385
6901.66 0.26553 0.00385
6904.63 0.2656 0.00385
6907.27 0.26567 0.00384
6909.91 0.26573 0.00384
6912.55 0.2658 0.00384
6915.19 0.26586 0.00384
6918.16 0.26593 0.00383
6920.8 0.266 0.00383
6923.44 0.26606 0.00383
6926.08 0.26612 0.00383
6928.72 0.26619 0.00382
6931.36 0.26625 0.00382
6934.33 0.26633 0.00382
6936.97 0.26639 0.00382
6939.61 0.26645 0.00381
6942.25 0.26652 0.00381
6944.89 0.26658 0.00381
6947.86 0.26666 0.00381
6950.5 0.26672 0.0038
6953.14 0.26678 0.0038
6955.78 0.26685 0.0038
6958.42 0.26691 0.0038
6961.39 0.26699 0.00379
6964.03 0.26705 0.00379
6966.67 0.26711 0.00379
6969.31 0.26718 0.00379
6971.95 0.26724 0.00378
6974.59 0.26731 0.00378
6977.56 0.26738 0.00378
6980.2 0.26744 0.00378
6982.84 0.26751 0.00377
6985.48 0.26757 0.00377
6988.12 0.26764 0.00377
6991.09 0.26771 0.00377
6993.73 0.26777 0.00377
7003.96 0.26802 0.00376
7006.6 0.26809 0.00375
7009.24 0.26815 0.00375
7012.21 0.26822 0.00375
7014.85 0.26829 0.00375
7017.49 0.26835 0.00375
7020.13 0.26842 0.00374
7022.77 0.26848 0.00374
7025.74 0.26855 0.00374
7028.38 0.26862 0.00374
7031.02 0.26868 0.00374
7033.66 0.26872 0.00373
7036.3 0.26875 0.00373
7038.94 0.26878 0.00373
7041.91 0.26882 0.00372
7044.55 0.26885 0.00372
7047.19 0.26888 0.00372
7049.83 0.26891 0.00372
7052.47 0.26894 0.00371
7055.44 0.26897 0.00371
7058.08 0.26899 0.00371
7060.72 0.26902 0.0037
7063.36 0.26905 0.0037
7066.0 0.26907 0.0037
7068.97 0.2691 0.0037
7071.61 0.26912 0.00369
7074.25 0.26914 0.00369
7076.89 0.26916 0.00369
7079.53 0.26918 0.00368
7082.17 0.2692 0.00368
7085.14 0.26922 0.00368
7087.78 0.26924 0.00368
7090.42 0.26926 0.00367
7093.06 0.26928 0.00367
7095.7 0.26929 0.00367
7098.67 0.26931 0.00366
7101.31 0.26932 0.00366
7103.95 0.26934 0.00366
7106.59 0.26935 0.00365
7109.23 0.26936 0.00365
7112.2 0.26938 0.00365
7114.84 0.26939 0.00365
7117.48 0.2694 0.00364
7120.12 0.2694 0.00364
7122.76 0.26941 0.00364
7125.4 0.26942 0.00363
7128.37 0.26943 0.00363
7131.01 0.26943 0.00363
7133.65 0.26944 0.00362
7136.29 0.26944 0.00362
7138.93 0.26945 0.00362
7141.9 0.26945 0.00362
7144.54 0.26945 0.00361
7147.18 0.26942 0.00361
7149.82 0.26939 0.00361
7152.46 0.26936 0.0036
7155.43 0.26932 0.0036
7158.07 0.26929 0.00359
7160.71 0.26925 0.00359
7163.35 0.26922 0.00359
7165.99 0.26919 0.00358
7168.63 0.26916 0.00358
7171.6 0.26912 0.00358
7174.24 0.26909 0.00357
7176.88 0.26906 0.00357
7179.52 0.26903 0.00357
7182.16 0.26899 0.00356
7185.13 0.26896 0.00356
7187.77 0.26893 0.00355
7190.41 0.26889 0.00355
7193.05 0.26886 0.00355
7195.69 0.26883 0.00354
7198.66 0.26879 0.00354
7201.3 0.26876 0.00354
7203.94 0.26873 0.00353
7206.58 0.2687 0.00353
7209.22 0.26867 0.00353
7211.86 0.26863 0.00352
7214.83 0.2686 0.00352
7217.47 0.26857 0.00352
7220.11 0.26853 0.00351
7222.75 0.2685 0.00351
7225.39 0.26847 0.00351
7228.36 0.26843 0.0035
7231.0 0.2684 0.0035
7233.64 0.26837 0.0035
7236.28 0.26834 0.00349
7238.92 0.26831 0.00349
7241.89 0.26827 0.00349
7244.53 0.26824 0.00348
7247.17 0.26821 0.00348
7249.81 0.26817 0.00348
7252.45 0.26814 0.00347
7255.09 0.26811 0.00347
7258.06 0.26807 0.00347
7260.7 0.26804 0.00346
7263.34 0.26801 0.00346
7265.98 0.26798 0.00346
7268.62 0.26794 0.00345
7271.59 0.26791 0.00345
7274.23 0.26788 0.00345
7276.87 0.26784 0.00344
7279.51 0.26781 0.00344
7282.15 0.26778 0.00344
7285.12 0.26774 0.00343
7287.76 0.26771 0.00343
7290.4 0.26768 0.00343
7293.04 0.26765 0.00342
7295.68 0.26762 0.00342
7298.32 0.26758 0.00342
7301.29 0.26755 0.00341
7303.93 0.26752 0.00341
7306.57 0.26748 0.00341
7309.21 0.26745 0.00341
7311.85 0.26742 0.0034
7314.82 0.26738 0.0034
7317.46 0.26735 0.0034
7320.1 0.26732 0.00339
7322.74 0.26729 0.00339
7325.38 0.26726 0.00339
7328.35 0.26722 0.00338
7330.99 0.26719 0.00338
7333.63 0.26716 0.00338
7336.27 0.26712 0.00338
7338.91 0.26709 0.00337
7341.88 0.26706 0.00337
7344.52 0.26702 0.00337
7347.16 0.26699 0.00336
7349.8 0.26696 0.00336
7352.44 0.26693 0.00336
7355.08 0.26689 0.00336
7358.05 0.26686 0.00335
7360.69 0.26683 0.00335
7363.33 0.26679 0.00335
7365.97 0.26676 0.00334
7368.61 0.26673 0.00334
7371.58 0.26669 0.00334
7374.22 0.26666 0.00334
7376.86 0.26663 0.00333
7379.5 0.2666 0.00333
7382.14 0.26657 0.00333
7385.11 0.26653 0.00332
7387.75 0.2665 0.00332
7390.39 0.26647 0.00332
7393.03 0.26643 0.00332
7395.67 0.2664 0.00331
7398.31 0.26637 0.00331
7401.28 0.26633 0.00331
7403.92 0.26627 0.00331
7406.56 0.26621 0.0033
7409.2 0.26614 0.0033
7411.84 0.26607 0.0033
7414.81 0.266 0.00329
7417.45 0.26593 0.00329
7420.09 0.26586 0.00328
7422.73 0.2658 0.00328
7425.37 0.26573 0.00328
7428.34 0.26565 0.00327
7430.98 0.26558 0.00327
7433.62 0.26551 0.00327
7436.26 0.26544 0.00326
7438.9 0.26536 0.00326
7441.54 0.26529 0.00326
7444.51 0.26521 0.00325
7447.15 0.26514 0.00325
7449.79 0.26506 0.00325
7452.43 0.26499 0.00324
7455.07 0.26491 0.00324
7458.04 0.26483 0.00324
7460.68 0.26475 0.00323
7463.32 0.26467 0.00323
7465.96 0.26459 0.00323
7468.6 0.26451 0.00322
7471.57 0.26443 0.00322
7474.21 0.26435 0.00322
7476.85 0.26427 0.00321
7479.49 0.26418 0.00321
7482.13 0.2641 0.00321
7484.77 0.26402 0.0032
7487.74 0.26393 0.0032
7490.38 0.26384 0.00319
7493.02 0.26376 0.00319
7495.66 0.26368 0.00319
7498.3 0.26359 0.00318
7501.27 0.26349 0.00318
7503.91 0.26341 0.00318
7506.55 0.26332 0.00317
7509.19 0.26323 0.00317
7511.83 0.26315 0.00317
7514.8 0.26305 0.00316
7517.44 0.26296 0.00316
7520.08 0.26287 0.00316
7522.72 0.26278 0.00315
7525.36 0.26269 0.00315
7528.0 0.2626 0.00314
7530.97 0.26249 0.00314
7533.61 0.2624 0.00314
7536.25 0.26231 0.00313
7538.89 0.26221 0.00313
7541.53 0.26212 0.00313
7544.5 0.26201 0.00312
7547.14 0.26192 0.00312
7549.78 0.26182 0.00312
7552.42 0.26173 0.00311
7555.06 0.26163 0.00311
7558.03 0.26152 0.0031
7560.67 0.26141 0.0031
7563.31 0.26129 0.0031
7565.95 0.26118 0.00309
7568.59 0.26106 0.00309
7571.23 0.26095 0.00308
7574.2 0.26082 0.00308
7576.84 0.2607 0.00308
7579.48 0.26059 0.00307
7582.12 0.26047 0.00307
7584.76 0.26036 0.00306
7587.73 0.26023 0.00306
7590.37 0.26011 0.00306
7593.01 0.26 0.00305
7595.65 0.25988 0.00305
7598.29 0.25977 0.00304
7601.26 0.25964 0.00304
7603.9 0.25952 0.00304
7606.54 0.25941 0.00303
7609.18 0.25929 0.00303
7611.82 0.25918 0.00302
7614.46 0.25906 0.00302
7617.43 0.25893 0.00302
7620.07 0.25882 0.00301
7622.71 0.2587 0.00301
7625.35 0.25859 0.003
7627.99 0.25847 0.003
7630.96 0.25834 0.003
7633.6 0.25823 0.00299
7636.24 0.25811 0.00299
7638.88 0.258 0.00299
7641.52 0.25788 0.00298
7644.49 0.25775 0.00298
7647.13 0.25764 0.00297
7649.77 0.25752 0.00297
7652.41 0.25741 0.00297
7655.05 0.25729 0.00296
7657.69 0.25718 0.00296
7660.66 0.25705 0.00295
7663.3 0.25693 0.00295
7665.94 0.25682 0.00295
7668.58 0.2567 0.00294
7671.22 0.25659 0.00294
7674.19 0.25646 0.00294
7676.83 0.25634 0.00293
7679.47 0.25623 0.00293
7682.11 0.25611 0.00293
7684.75 0.256 0.00292
7687.72 0.25587 0.00292
7690.36 0.25575 0.00291
7693.0 0.25564 0.00291
7695.64 0.25552 0.00291
7698.28 0.25541 0.0029
7701.25 0.25528 0.0029
7703.89 0.25516 0.0029
7706.53 0.25505 0.00289
7709.17 0.25493 0.00289
7711.81 0.25482 0.00289
7714.45 0.2547 0.00288
7717.42 0.25457 0.00288
7720.06 0.25446 0.00288
7722.7 0.25434 0.00287
7725.34 0.25423 0.00287
7727.98 0.25411 0.00287
7730.95 0.25398 0.00286
7733.59 0.25387 0.00286
7736.23 0.25375 0.00285
7738.87 0.25364 0.00285
7741.51 0.25352 0.00285
7744.48 0.25338 0.00284
7747.12 0.25324 0.00284
7749.76 0.25311 0.00284
7752.4 0.25298 0.00283
7755.04 0.25284 0.00283
7757.68 0.25271 0.00283
7760.65 0.25256 0.00282
7763.29 0.25242 0.00282
7765.93 0.25229 0.00281
7768.57 0.25215 0.00281
7771.21 0.25202 0.00281
7774.18 0.25186 0.0028
7776.82 0.25173 0.0028
7779.46 0.25159 0.0028
7782.1 0.25145 0.00279
7784.74 0.25131 0.00279
7787.71 0.25116 0.00278
7790.35 0.25102 0.00278
7792.99 0.25088 0.00278
7795.63 0.25074 0.00277
7798.27 0.2506 0.00277
7800.91 0.25046 0.00277
7803.88 0.2503 0.00276
7806.52 0.25015 0.00276
7809.16 0.25001 0.00276
7811.8 0.24987 0.00275
7814.44 0.24973 0.00275
7817.41 0.24957 0.00274
7820.05 0.24942 0.00274
7822.69 0.24928 0.00274
7825.33 0.24913 0.00273
7827.97 0.24899 0.00273
7830.94 0.24882 0.00273
7833.58 0.24868 0.00272
7836.22 0.24853 0.00272
7838.86 0.24839 0.00272
7841.5 0.24824 0.00271
7844.14 0.24809 0.00271
7847.11 0.24792 0.00271
7849.75 0.24778 0.0027
7852.39 0.24763 0.0027
7855.03 0.24748 0.0027
7857.67 0.24733 0.00269
7860.64 0.24716 0.00269
7863.28 0.24701 0.00269
7865.92 0.24686 0.00268
7868.56 0.24671 0.00268
7871.2 0.24656 0.00268
7874.17 0.24639 0.00267
7876.81 0.24623 0.00267
7879.45 0.24608 0.00267
7882.09 0.24593 0.00266
7884.73 0.24577 0.00266
7887.37 0.24562 0.00266
7890.34 0.24545 0.00265
7892.98 0.24529 0.00265
7895.62 0.24514 0.00265
7898.26 0.24498 0.00265
7900.9 0.24483 0.00264
7903.87 0.24465 0.00264
7906.51 0.2445 0.00264
7909.15 0.24434 0.00263
7911.79 0.24418 0.00263
7914.43 0.24402 0.00263
7917.4 0.24385 0.00263
7920.04 0.24369 0.00262
7922.68 0.24353 0.00262
7925.32 0.24337 0.00262
7927.96 0.24321 0.00262
7930.6 0.24305 0.00261
7933.57 0.24287 0.00261
7936.21 0.24271 0.00261
7938.85 0.24255 0.00261
7941.49 0.24239 0.0026
7944.13 0.24223 0.0026
7947.1 0.24205 0.0026
7949.74 0.24188 0.0026
7952.38 0.24172 0.00259
7955.02 0.24156 0.00259
7957.66 0.2414 0.00259
7960.63 0.24121 0.00259
7963.27 0.24105 0.00259
7965.91 0.24088 0.00258
7968.55 0.24072 0.00258
7971.19 0.24055 0.00258
7973.83 0.24039 0.00258
7976.8 0.2402 0.00258
7979.44 0.24004 0.00258
7982.08 0.23987 0.00257
7984.72 0.2397 0.00257
7987.36 0.23954 0.00257
7990.33 0.23935 0.00257
7992.97 0.23918 0.00257
7995.61 0.23901 0.00257
7998.25 0.23885 0.00257
8000.89 0.23868 0.00256
8003.86 0.23849 0.00256
8006.5 0.23832 0.00256
8009.14 0.23815 0.00256
8011.78 0.23798 0.00256
8014.42 0.23781 0.00256
8017.39 0.23762 0.00256
8020.03 0.23745 0.00256
8022.67 0.23728 0.00256
8025.31 0.2371 0.00256
8027.95 0.23693 0.00256
8030.59 0.23676 0.00256
8033.56 0.23657 0.00256
8036.2 0.23639 0.00256
8038.84 0.23622 0.00256
8041.48 0.23605 0.00256
8044.12 0.23587 0.00256
8047.09 0.23568 0.00256
8049.73 0.23551 0.00256
8052.37 0.23533 0.00256
8055.01 0.23516 0.00256
8057.65 0.23498 0.00256
8060.62 0.23478 0.00256
8063.26 0.23461 0.00256
8065.9 0.23443 0.00256
8068.54 0.23426 0.00256
8071.18 0.23408 0.00256
8073.82 0.2339 0.00256
8076.79 0.2337 0.00256
8079.43 0.23353 0.00256
8082.07 0.23335 0.00256
8084.71 0.23317 0.00257
8087.35 0.23299 0.00257
8090.32 0.23279 0.00257
8092.96 0.23261 0.00257
8095.6 0.23244 0.00257
8098.24 0.23226 0.00257
8100.88 0.23208 0.00258
8103.85 0.23187 0.00258
8106.49 0.23169 0.00258
8109.13 0.23151 0.00258
8111.77 0.23133 0.00258
8114.41 0.23115 0.00259
8117.05 0.23097 0.00259
8120.02 0.23077 0.00259
8122.66 0.23059 0.0026
8125.3 0.2304 0.0026
8127.94 0.23022 0.0026
