# %ECSV 1.0
# ---
# datatype:
# - {name: WAV, unit: Angstrom, datatype: float32}
# - {name: EFF, unit: electron / ph, datatype: float64}
# - {name: EFF_UNC, datatype: float64}
# meta: !!omap
# - {CWAV: '8000'}
# - {FILTER: OG550}
# - {GRATING: 1200G}
# - {GRISM: none}
# - {MODE: spectroscopic}
# - {DICHROIC: none}
# schema: astropy-2.0
WAV EFF EFF_UNC
6645.35 0.18253 0.00438
6647.99 0.18275 0.00436
6650.63 0.18297 0.00434
6653.6 0.18321 0.00431
6656.24 0.18343 0.00429
6658.88 0.18365 0.00427
6661.52 0.18386 0.00425
6664.16 0.18408 0.00423
6667.13 0.18432 0.00421
6669.77 0.18453 0.00419
6672.41 0.18475 0.00418
6675.05 0.18496 0.00416
6677.69 0.18517 0.00414
6680.33 0.18538 0.00412
6683.3 0.18561 0.0041
6685.94 0.18582 0.00408
6688.58 0.18603 0.00407
6691.22 0.18624 0.00405
6693.86 0.18644 0.00403
6696.83 0.18667 0.00401
6699.47 0.18688 0.004
6702.11 0.18708 0.00398
6704.75 0.18728 0.00396
6707.39 0.18748 0.00395
6710.36 0.18771 0.00393
6713.0 0.18791 0.00391
6715.64 0.18811 0.0039
6718.28 0.1883 0.00388
6720.92 0.1885 0.00387
6723.56 0.1887 0.00385
6726.53 0.18892 0.00384
6729.17 0.18911 0.00382
6731.81 0.1893 0.00381
6734.45 0.1895 0.00379
6737.09 0.18969 0.00378
6740.06 0.1899 0.00376
6742.7 0.19009 0.00375
6745.34 0.19028 0.00374
6747.98 0.19047 0.00372
6750.62 0.19066 0.00371
6753.59 0.19087 0.0037
6756.23 0.19105 0.00368
6758.87 0.19124 0.00367
6761.51 0.19142 0.00366
6764.15 0.1916 0.00365
6766.79 0.19178 0.00363
6769.76 0.19199 0.00362
6772.4 0.19217 0.00361
6775.04 0.19235 0.0036
6777.68 0.19253 0.00359
6780.32 0.19271 0.00358
6783.29 0.1929 0.00356
6785.93 0.19308 0.00355
6788.57 0.19326 0.00354
6791.21 0.19343 0.00353
6793.85 0.1936 0.00352
6796.82 0.1938 0.00351
6799.46 0.19397 0.0035
6802.1 0.19414 0.00349
6804.74 0.19431 0.00348
6807.38 0.19448 0.00347
6810.02 0.19465 0.00346
6812.99 0.19484 0.00345
6815.63 0.19501 0.00344
6818.27 0.19517 0.00344
6820.91 0.19534 0.00343
6823.55 0.1955 0.00342
6826.52 0.19569 0.00341
6829.16 0.19585 0.0034
6831.8 0.19601 0.00339
6834.44 0.19617 0.00339
6837.08 0.19633 0.00338
6840.05 0.19648 0.00337
6842.69 0.19661 0.00336
6845.33 0.19674 0.00336
6847.97 0.19687 0.00335
6850.61 0.197 0.00334
6853.25 0.19714 0.00334
6856.22 0.19728 0.00333
6858.86 0.19741 0.00332
6861.5 0.19755 0.00332
6864.14 0.19768 0.00331
6866.78 0.19781 0.00331
6869.75 0.19796 0.0033
6872.39 0.19809 0.00329
6875.03 0.19822 0.00329
6877.67 0.19835 0.00328
6880.31 0.19848 0.00328
6883.28 0.19863 0.00327
6885.92 0.19876 0.00327
6888.56 0.19889 0.00326
6891.2 0.19902 0.00325
6893.84 0.19915 0.00325
6896.48 0.19929 0.00324
6899.45 0.19943 0.00324
6902.09 0.19956 0.00323
6904.73 0.1997 0.00323
6907.37 0.19983 0.00322
6910.01 0.19996 0.00322
6912.98 0.20011 0.00322
6915.62 0.20024 0.00321
6918.26 0.20037 0.00321
6920.9 0.2005 0.0032
6923.54 0.20063 0.0032
6926.51 0.20078 0.00319
6929.15 0.20091 0.00319
6931.79 0.20104 0.00319
6934.43 0.20117 0.00318
6937.07 0.2013 0.00318
6939.71 0.20143 0.00318
6942.68 0.20158 0.00317
6945.32 0.20171 0.00317
6947.96 0.20184 0.00316
6950.6 0.20198 0.00316
6953.24 0.20211 0.00316
6956.21 0.20226 0.00316
6958.85 0.20239 0.00315
6961.49 0.20252 0.00315
6964.13 0.20265 0.00315
6966.77 0.20278 0.00314
6969.74 0.20293 0.00314
6972.38 0.20306 0.00314
6975.02 0.20319 0.00314
6977.66 0.20332 0.00314
6980.3 0.20345 0.00313
6982.94 0.20358 0.00313
6985.91 0.20373 0.00313
6988.55 0.20386 0.00313
6991.19 0.20399 0.00313
6993.83 0.20413 0.00312
6996.47 0.20426 0.00312
6999.44 0.2044 0.00312
7002.08 0.20454 0.00312
7004.72 0.20467 0.00312
7007.36 0.2048 0.00312
7010.0 0.20493 0.00312
7012.97 0.20508 0.00312
7015.61 0.20521 0.00312
7018.25 0.20534 0.00312
7020.89 0.20547 0.00312
7023.53 0.2056 0.00311
7026.5 0.20575 0.00311
7029.14 0.20588 0.00311
7031.78 0.20601 0.00311
7034.42 0.20612 0.00311
7037.06 0.20622 0.00311
7039.7 0.20632 0.00311
7042.67 0.20643 0.00311
7045.31 0.20653 0.00311
7047.95 0.20663 0.00311
7050.59 0.20673 0.00311
7053.23 0.20683 0.00311
7056.2 0.20694 0.00311
7058.84 0.20704 0.00311
7061.48 0.20713 0.00311
7064.12 0.20723 0.00311
7066.76 0.20732 0.00311
7069.73 0.20743 0.0031
7072.37 0.20752 0.0031
7075.01 0.20761 0.0031
7077.65 0.2077 0.0031
7080.29 0.20779 0.0031
7082.93 0.20788 0.0031
7085.9 0.20798 0.0031
7088.54 0.20807 0.0031
7091.18 0.20816 0.0031
7093.82 0.20825 0.0031
7096.46 0.20833 0.0031
7099.43 0.20843 0.0031
7102.07 0.20852 0.0031
7104.71 0.2086 0.0031
7107.35 0.20868 0.0031
7109.99 0.20877 0.0031
7112.96 0.20886 0.0031
7115.6 0.20894 0.0031
7118.24 0.20902 0.0031
7120.88 0.2091 0.0031
7123.52 0.20918 0.0031
7126.16 0.20926 0.0031
7129.13 0.20935 0.0031
7131.77 0.20942 0.0031
7134.41 0.2095 0.0031
7137.05 0.20957 0.0031
7139.69 0.20965 0.0031
7142.66 0.20973 0.0031
7145.3 0.20978 0.0031
7147.94 0.20982 0.00309
7150.58 0.20986 0.00309
7153.22 0.2099 0.00309
7156.19 0.20995 0.00309
7158.83 0.20999 0.00309
7161.47 0.21003 0.00309
7164.11 0.21008 0.00309
7166.75 0.21012 0.00308
7169.39 0.21016 0.00308
7172.36 0.21021 0.00308
7175.0 0.21025 0.00308
7177.64 0.21029 0.00308
7180.28 0.21034 0.00308
7182.92 0.21038 0.00307
7185.89 0.21042 0.00307
7188.53 0.21047 0.00307
7191.17 0.21051 0.00307
7193.81 0.21055 0.00307
7196.45 0.21059 0.00307
7199.42 0.21064 0.00307
7202.06 0.21068 0.00307
7204.7 0.21073 0.00306
7207.34 0.21077 0.00306
7209.98 0.21081 0.00306
7212.62 0.21085 0.00306
7215.59 0.2109 0.00306
7218.23 0.21094 0.00306
7220.87 0.21098 0.00306
7223.51 0.21103 0.00306
7226.15 0.21107 0.00305
7229.12 0.21112 0.00305
7231.76 0.21116 0.00305
7234.4 0.2112 0.00305
7237.04 0.21124 0.00305
7239.68 0.21128 0.00305
7242.65 0.21133 0.00305
7245.29 0.21137 0.00305
7247.93 0.21142 0.00305
7250.57 0.21146 0.00304
7253.21 0.2115 0.00304
7255.85 0.21154 0.00304
7258.82 0.21159 0.00304
7261.46 0.21163 0.00304
7264.1 0.21167 0.00304
7266.74 0.21172 0.00304
7269.38 0.21176 0.00304
7272.35 0.21181 0.00304
7274.99 0.21185 0.00304
7277.63 0.21189 0.00304
7280.27 0.21193 0.00303
7282.91 0.21198 0.00303
7285.88 0.21202 0.00303
7288.52 0.21207 0.00303
7291.16 0.21211 0.00303
7293.8 0.21215 0.00303
7296.44 0.21219 0.00303
7299.08 0.21223 0.00303
7302.05 0.21228 0.00303
7304.69 0.21232 0.00303
7307.33 0.21237 0.00303
7309.97 0.21241 0.00303
7312.61 0.21245 0.00303
7315.58 0.2125 0.00303
7318.22 0.21254 0.00303
7320.86 0.21258 0.00302
7323.5 0.21262 0.00302
7326.14 0.21267 0.00302
7329.11 0.21271 0.00302
7331.75 0.21276 0.00302
7334.39 0.2128 0.00302
7337.03 0.21284 0.00302
7339.67 0.21288 0.00302
7342.64 0.21293 0.00302
7345.28 0.21297 0.00302
7347.92 0.21301 0.00302
7350.56 0.21306 0.00302
7353.2 0.2131 0.00302
7355.84 0.21314 0.00302
7358.81 0.21319 0.00302
7361.45 0.21323 0.00302
7364.09 0.21327 0.00302
7366.73 0.21332 0.00302
7369.37 0.21336 0.00302
7372.34 0.21341 0.00302
7374.98 0.21345 0.00302
7377.62 0.21349 0.00302
7380.26 0.21353 0.00302
7382.9 0.21357 0.00302
7385.87 0.21362 0.00302
7388.51 0.21366 0.00302
7391.15 0.21371 0.00302
7393.79 0.21375 0.00302
7396.43 0.21379 0.00302
7399.07 0.21383 0.00302
7402.04 0.21388 0.00302
7404.68 0.21389 0.00301
7407.32 0.2139 0.00301
7409.96 0.21391 0.00301
7412.6 0.21392 0.00301
7415.57 0.21393 0.00301
7418.21 0.21394 0.003
7420.85 0.21395 0.003
7423.49 0.21396 0.003
7426.13 0.21397 0.003
7429.1 0.21397 0.00299
7431.74 0.21398 0.00299
7434.38 0.21399 0.00299
7437.02 0.21399 0.00299
7439.66 0.21399 0.00299
7442.3 0.214 0.00298
7445.27 0.214 0.00298
7447.91 0.214 0.00298
7450.55 0.21401 0.00298
7453.19 0.21401 0.00297
7455.83 0.21401 0.00297
7458.8 0.21401 0.00297
7461.44 0.21401 0.00297
7464.08 0.21401 0.00296
7466.72 0.21401 0.00296
7469.36 0.214 0.00296
7472.33 0.214 0.00296
7474.97 0.214 0.00295
7477.61 0.214 0.00295
7480.25 0.21399 0.00295
7482.89 0.21399 0.00294
7485.53 0.21398 0.00294
7488.5 0.21397 0.00294
7491.14 0.21397 0.00294
7493.78 0.21396 0.00293
7496.42 0.21395 0.00293
7499.06 0.21394 0.00293
7502.03 0.21394 0.00292
7504.67 0.21393 0.00292
7507.31 0.21392 0.00292
7509.95 0.21391 0.00292
7512.59 0.2139 0.00291
7515.56 0.21388 0.00291
7518.2 0.21387 0.00291
7520.84 0.21386 0.0029
7523.48 0.21384 0.0029
7526.12 0.21383 0.0029
7528.76 0.21382 0.00289
7531.73 0.2138 0.00289
7534.37 0.21379 0.00289
7537.01 0.21377 0.00288
7539.65 0.21375 0.00288
7542.29 0.21374 0.00288
7545.26 0.21372 0.00287
7547.9 0.2137 0.00287
7550.54 0.21368 0.00287
7553.18 0.21366 0.00286
7555.82 0.21364 0.00286
7558.79 0.21362 0.00286
7561.43 0.21358 0.00285
7564.07 0.21355 0.00285
7566.71 0.21351 0.00285
7569.35 0.21347 0.00284
7571.99 0.21343 0.00284
7574.96 0.21339 0.00283
7577.6 0.21335 0.00283
7580.24 0.21332 0.00282
7582.88 0.21328 0.00282
7585.52 0.21324 0.00282
7588.49 0.2132 0.00281
7591.13 0.21316 0.00281
7593.77 0.21313 0.0028
7596.41 0.21309 0.0028
7599.05 0.21305 0.0028
7602.02 0.21301 0.00279
7604.66 0.21297 0.00279
7607.3 0.21294 0.00278
7609.94 0.2129 0.00278
7612.58 0.21286 0.00278
7615.22 0.21282 0.00277
7618.19 0.21278 0.00277
7620.83 0.21274 0.00276
7623.47 0.21271 0.00276
7626.11 0.21267 0.00276
7628.75 0.21263 0.00275
7631.72 0.21259 0.00275
7634.36 0.21255 0.00274
7637.0 0.21252 0.00274
7639.64 0.21248 0.00274
7642.28 0.21244 0.00273
7645.25 0.2124 0.00273
7647.89 0.21236 0.00272
7650.53 0.21232 0.00272
7653.17 0.21229 0.00272
7655.81 0.21225 0.00271
7658.78 0.21221 0.00271
7661.42 0.21217 0.0027
7664.06 0.21213 0.0027
7666.7 0.2121 0.0027
7669.34 0.21206 0.00269
7671.98 0.21202 0.00269
7674.95 0.21198 0.00268
7677.59 0.21194 0.00268
7680.23 0.21191 0.00268
7682.87 0.21187 0.00267
7685.51 0.21183 0.00267
7688.48 0.21179 0.00267
7691.12 0.21175 0.00266
7693.76 0.21171 0.00266
7696.4 0.21168 0.00265
7699.04 0.21164 0.00265
7702.01 0.2116 0.00265
7704.65 0.21156 0.00264
7707.29 0.21152 0.00264
7709.93 0.21149 0.00264
7712.57 0.21145 0.00263
7715.21 0.21141 0.00263
7718.18 0.21137 0.00262
7720.82 0.21133 0.00262
7723.46 0.21129 0.00262
7726.1 0.21126 0.00261
7728.74 0.21122 0.00261
7731.71 0.21118 0.00261
7734.35 0.21114 0.0026
7736.99 0.2111 0.0026
7739.63 0.21107 0.0026
7742.27 0.21103 0.00259
7745.24 0.21097 0.00259
7747.88 0.21091 0.00258
7750.52 0.21086 0.00258
7753.16 0.2108 0.00257
7755.8 0.21075 0.00257
7758.44 0.21069 0.00257
7761.41 0.21063 0.00256
7764.05 0.21057 0.00256
7766.69 0.21052 0.00255
7769.33 0.21046 0.00255
7771.97 0.2104 0.00255
7774.94 0.21033 0.00254
7777.58 0.21028 0.00254
7780.22 0.21022 0.00253
7782.86 0.21016 0.00253
7785.5 0.2101 0.00252
7788.47 0.21003 0.00252
7791.11 0.20997 0.00252
7793.75 0.2099 0.00251
7796.39 0.20984 0.00251
7799.03 0.20978 0.0025
7801.67 0.20972 0.0025
7804.64 0.20965 0.0025
7807.28 0.20958 0.00249
7809.92 0.20952 0.00249
7812.56 0.20945 0.00248
7815.2 0.20939 0.00248
7818.17 0.20931 0.00247
7820.81 0.20925 0.00247
7823.45 0.20918 0.00247
7826.09 0.20912 0.00246
7828.73 0.20905 0.00246
7831.7 0.20897 0.00245
7834.34 0.2089 0.00245
7836.98 0.20884 0.00245
7839.62 0.20877 0.00244
7842.26 0.2087 0.00244
7844.9 0.20863 0.00243
7847.87 0.20855 0.00243
7850.51 0.20848 0.00243
7853.15 0.20841 0.00242
7855.79 0.20834 0.00242
7858.43 0.20827 0.00241
7861.4 0.20818 0.00241
7864.04 0.20811 0.00241
7866.68 0.20804 0.0024
7869.32 0.20797 0.0024
7871.96 0.20789 0.00239
7874.93 0.20781 0.00239
7877.57 0.20774 0.00239
7880.21 0.20766 0.00238
7882.85 0.20759 0.00238
7885.49 0.20751 0.00238
7888.13 0.20743 0.00237
7891.1 0.20735 0.00237
7893.74 0.20727 0.00236
7896.38 0.20719 0.00236
7899.02 0.20712 0.00236
7901.66 0.20704 0.00235
7904.63 0.20695 0.00235
7907.27 0.20687 0.00234
7909.91 0.20679 0.00234
7912.55 0.20671 0.00234
7915.19 0.20663 0.00233
7918.16 0.20654 0.00233
7920.8 0.20646 0.00233
7923.44 0.20638 0.00232
7926.08 0.2063 0.00232
7928.72 0.20622 0.00232
7931.36 0.20614 0.00231
7934.33 0.20604 0.00231
7936.97 0.20596 0.00231
7939.61 0.20588 0.0023
7942.25 0.20579 0.0023
7944.89 0.20571 0.0023
7947.86 0.20561 0.00229
7950.5 0.20553 0.00229
7953.14 0.20544 0.00229
7955.78 0.20536 0.00228
7958.42 0.20527 0.00228
7961.39 0.20518 0.00228
7964.03 0.20509 0.00227
7966.67 0.205 0.00227
7969.31 0.20492 0.00227
7971.95 0.20483 0.00226
7974.59 0.20474 0.00226
7977.56 0.20464 0.00226
7980.2 0.20455 0.00225
7982.84 0.20446 0.00225
7985.48 0.20437 0.00225
7988.12 0.20428 0.00224
7991.09 0.20418 0.00224
7993.73 0.20409 0.00224
8003.96 0.20374 0.00223
8006.6 0.20365 0.00223
8009.24 0.20355 0.00222
8012.21 0.20345 0.00222
8014.85 0.20336 0.00222
8017.49 0.20326 0.00221
8020.13 0.20317 0.00221
8022.77 0.20308 0.00221
8025.74 0.20297 0.00221
8028.38 0.20287 0.0022
8031.02 0.20278 0.0022
8033.66 0.20268 0.0022
8036.3 0.20259 0.0022
8038.94 0.20249 0.00219
8041.91 0.20238 0.00219
8044.55 0.20229 0.00219
8047.19 0.20219 0.00219
8049.83 0.20209 0.00219
8052.47 0.20199 0.00218
8055.44 0.20188 0.00218
8058.08 0.20179 0.00218
8060.72 0.20169 0.00218
8063.36 0.20159 0.00217
8066.0 0.20149 0.00217
8068.97 0.20138 0.00217
8071.61 0.20128 0.00217
8074.25 0.20118 0.00217
8076.89 0.20108 0.00216
8079.53 0.20098 0.00216
8082.17 0.20087 0.00216
8085.14 0.20076 0.00216
8087.78 0.20066 0.00216
8090.42 0.20056 0.00216
8093.06 0.20045 0.00215
8095.7 0.20035 0.00215
8098.67 0.20023 0.00215
8101.31 0.20013 0.00215
8103.95 0.20003 0.00215
8106.59 0.19992 0.00215
8109.23 0.19982 0.00214
8112.2 0.1997 0.00214
8114.84 0.1996 0.00214
8117.48 0.19949 0.00214
8120.12 0.19939 0.00214
8122.76 0.19928 0.00214
8125.4 0.19917 0.00214
8128.37 0.19905 0.00213
8131.01 0.19894 0.00213
8133.65 0.19882 0.00213
8136.29 0.1987 0.00213
8138.93 0.19858 0.00213
8141.9 0.19844 0.00213
8144.54 0.19833 0.00213
8147.18 0.19821 0.00213
8149.82 0.19809 0.00213
8152.46 0.19797 0.00213
8155.43 0.19783 0.00213
8158.07 0.19772 0.00213
8160.71 0.1976 0.00213
8163.35 0.19748 0.00213
8165.99 0.19736 0.00213
8168.63 0.19724 0.00213
8171.6 0.19711 0.00213
8174.24 0.19699 0.00213
8176.88 0.19687 0.00213
8179.52 0.19675 0.00213
8182.16 0.19663 0.00212
8185.13 0.1965 0.00212
8187.77 0.19638 0.00212
8190.41 0.19626 0.00212
8193.05 0.19614 0.00212
8195.69 0.19602 0.00212
8198.66 0.19589 0.00212
8201.3 0.19577 0.00212
8203.94 0.19565 0.00212
8206.58 0.19553 0.00212
8209.22 0.19541 0.00212
8211.86 0.19529 0.00212
8214.83 0.19516 0.00212
8217.47 0.19504 0.00212
8220.11 0.19492 0.00212
8222.75 0.1948 0.00212
8225.39 0.19468 0.00212
8228.36 0.19455 0.00212
8231.0 0.19443 0.00212
8233.64 0.19431 0.00213
8236.28 0.19419 0.00213
8238.92 0.19407 0.00213
8241.89 0.19394 0.00213
8244.53 0.19382 0.00213
8247.17 0.1937 0.00213
8249.81 0.19358 0.00213
8252.45 0.19346 0.00213
8255.09 0.19334 0.00213
8258.06 0.19321 0.00213
8260.7 0.19309 0.00213
8263.34 0.19297 0.00213
8265.98 0.19285 0.00213
8268.62 0.19274 0.00213
8271.59 0.1926 0.00213
8274.23 0.19248 0.00213
8276.87 0.19236 0.00213
8279.51 0.19224 0.00213
8282.15 0.19213 0.00213
8285.12 0.19199 0.00214
8287.76 0.19187 0.00214
8290.4 0.19175 0.00214
8293.04 0.19163 0.00214
8295.68 0.19152 0.00214
8298.32 0.1914 0.00214
8301.29 0.19126 0.00214
8303.93 0.19114 0.00214
8306.57 0.19103 0.00214
8309.21 0.19091 0.00214
8311.85 0.19079 0.00214
8314.82 0.19065 0.00215
8317.46 0.19053 0.00215
8320.1 0.19042 0.00215
8322.74 0.1903 0.00215
8325.38 0.19018 0.00215
8328.35 0.19004 0.00215
8330.99 0.18992 0.00215
8333.63 0.18981 0.00215
8336.27 0.18969 0.00215
8338.91 0.18957 0.00216
8341.88 0.18943 0.00216
8344.52 0.18932 0.00216
8347.16 0.1892 0.00216
8349.8 0.18908 0.00216
8352.44 0.18896 0.00216
8355.08 0.18884 0.00216
8358.05 0.18871 0.00217
8360.69 0.18859 0.00217
8363.33 0.18847 0.00217
8365.97 0.18835 0.00217
8368.61 0.18823 0.00217
8371.58 0.1881 0.00217
8374.22 0.18798 0.00218
8376.86 0.18786 0.00218
8379.5 0.18774 0.00218
8382.14 0.18762 0.00218
8385.11 0.18749 0.00218
8387.75 0.18737 0.00218
8390.39 0.18725 0.00219
8393.03 0.18712 0.00219
8395.67 0.18699 0.00219
8398.31 0.18686 0.00219
8401.28 0.18671 0.00219
8403.92 0.18658 0.0022
8406.56 0.18645 0.0022
8409.2 0.18632 0.0022
8411.84 0.18619 0.0022
8414.81 0.18604 0.0022
8417.45 0.18591 0.00221
8420.09 0.18578 0.00221
8422.73 0.18565 0.00221
8425.37 0.18552 0.00221
8428.34 0.18537 0.00222
8430.98 0.18523 0.00222
8433.62 0.1851 0.00222
8436.26 0.18497 0.00222
8438.9 0.18484 0.00223
8441.54 0.1847 0.00223
8444.51 0.18455 0.00223
8447.15 0.18442 0.00223
8449.79 0.18429 0.00223
8452.43 0.18415 0.00224
8455.07 0.18402 0.00224
8458.04 0.18387 0.00224
8460.68 0.18374 0.00224
8463.32 0.1836 0.00225
8465.96 0.18347 0.00225
8468.6 0.18333 0.00225
8471.57 0.18318 0.00225
8474.21 0.18305 0.00226
8476.85 0.18291 0.00226
8479.49 0.18278 0.00226
8482.13 0.18264 0.00227
8484.77 0.18251 0.00227
8487.74 0.18235 0.00227
8490.38 0.18222 0.00227
8493.02 0.18208 0.00228
8495.66 0.18195 0.00228
8498.3 0.18181 0.00228
8501.27 0.18166 0.00228
8503.91 0.18152 0.00229
8506.55 0.18139 0.00229
8509.19 0.18125 0.00229
8511.83 0.18111 0.00229
8514.8 0.18096 0.0023
8517.44 0.18082 0.0023
8520.08 0.18068 0.0023
8522.72 0.18055 0.00231
8525.36 0.18041 0.00231
8528.0 0.18027 0.00231
8530.97 0.18012 0.00231
8533.61 0.17998 0.00232
8536.25 0.17984 0.00232
8538.89 0.1797 0.00232
8541.53 0.17957 0.00233
8544.5 0.17941 0.00233
8547.14 0.17927 0.00233
8549.78 0.17913 0.00233
8552.42 0.17899 0.00234
8555.06 0.17886 0.00234
8558.03 0.1787 0.00234
8560.67 0.17856 0.00235
8563.31 0.17842 0.00235
8565.95 0.17828 0.00235
8568.59 0.17814 0.00236
8571.23 0.178 0.00236
8574.2 0.17785 0.00236
8576.84 0.17771 0.00236
8579.48 0.17757 0.00237
8582.12 0.17743 0.00237
8584.76 0.17729 0.00237
8587.73 0.17713 0.00238
8590.37 0.17699 0.00238
8593.01 0.17685 0.00238
8595.65 0.17671 0.00239
8598.29 0.17657 0.00239
8601.26 0.17641 0.00239
8603.9 0.17627 0.0024
8606.54 0.17613 0.0024
8609.18 0.17599 0.0024
8611.82 0.17585 0.0024
8614.46 0.17571 0.00241
8617.43 0.17555 0.00241
8620.07 0.17541 0.00241
8622.71 0.17526 0.00242
8625.35 0.17512 0.00242
8627.99 0.17498 0.00242
8630.96 0.17482 0.00243
8633.6 0.17468 0.00243
8636.24 0.17454 0.00243
8638.88 0.1744 0.00244
8641.52 0.17426 0.00244
8644.49 0.1741 0.00244
8647.13 0.17395 0.00245
8649.77 0.17381 0.00245
8652.41 0.17367 0.00245
8655.05 0.17353 0.00246
8657.69 0.17338 0.00246
8660.66 0.17322 0.00246
8663.3 0.17308 0.00247
8665.94 0.17294 0.00247
8668.58 0.1728 0.00247
8671.22 0.17265 0.00247
8674.19 0.17249 0.00248
8676.83 0.17235 0.00248
8679.47 0.17221 0.00248
8682.11 0.17206 0.00249
8684.75 0.17192 0.00249
8687.72 0.17176 0.00249
8690.36 0.17162 0.0025
8693.0 0.17147 0.0025
8695.64 0.17133 0.0025
8698.28 0.17119 0.00251
8701.25 0.17103 0.00251
8703.89 0.17088 0.00252
8706.53 0.17074 0.00252
8709.17 0.17059 0.00252
8711.81 0.17045 0.00252
8714.45 0.17031 0.00253
8717.42 0.17015 0.00253
8720.06 0.17 0.00254
8722.7 0.16986 0.00254
8725.34 0.16971 0.00254
8727.98 0.16957 0.00255
8730.95 0.16941 0.00255
8733.59 0.16926 0.00255
8736.23 0.16912 0.00256
8738.87 0.16898 0.00256
8741.51 0.16883 0.00256
8744.48 0.16867 0.00257
8747.12 0.16852 0.00257
8749.76 0.16838 0.00257
8752.4 0.16824 0.00258
8755.04 0.16809 0.00258
8757.68 0.16795 0.00258
8760.65 0.16778 0.00259
8763.29 0.16764 0.00259
8765.93 0.1675 0.0026
8768.57 0.16735 0.0026
8771.21 0.16721 0.0026
8774.18 0.16704 0.00261
8776.82 0.1669 0.00261
8779.46 0.16675 0.00261
8782.1 0.16661 0.00262
8784.74 0.16647 0.00262
8787.71 0.1663 0.00263
8790.35 0.16616 0.00263
8792.99 0.16601 0.00263
8795.63 0.16587 0.00264
8798.27 0.16572 0.00264
8800.91 0.16558 0.00264
8803.88 0.16542 0.00265
8806.52 0.16527 0.00265
8809.16 0.16513 0.00266
8811.8 0.16498 0.00266
8814.44 0.16484 0.00266
8817.41 0.16467 0.00267
8820.05 0.16453 0.00267
8822.69 0.16438 0.00268
8825.33 0.16424 0.00268
8827.97 0.16409 0.00268
8830.94 0.16393 0.00269
8833.58 0.16379 0.00269
8836.22 0.16364 0.0027
8838.86 0.1635 0.0027
8841.5 0.16335 0.0027
8844.14 0.16321 0.00271
8847.11 0.16304 0.00271
8849.75 0.1629 0.00272
8852.39 0.16275 0.00272
8855.03 0.16261 0.00272
8857.67 0.16246 0.00273
8860.64 0.1623 0.00273
8863.28 0.16216 0.00274
8865.92 0.16201 0.00274
8868.56 0.16187 0.00275
8871.2 0.16172 0.00275
8874.17 0.16156 0.00276
8876.81 0.16141 0.00276
8879.45 0.16127 0.00276
8882.09 0.16112 0.00277
8884.73 0.16098 0.00277
8887.37 0.16083 0.00278
8890.34 0.16067 0.00278
8892.98 0.16053 0.00279
8895.62 0.16038 0.00279
8898.26 0.16024 0.0028
8900.9 0.16009 0.0028
8903.87 0.15993 0.00281
8906.51 0.15979 0.00281
8909.15 0.15964 0.00282
8911.79 0.1595 0.00282
8914.43 0.15935 0.00283
8917.4 0.15919 0.00283
8920.04 0.15905 0.00284
8922.68 0.1589 0.00284
8925.32 0.15876 0.00285
8927.96 0.15861 0.00285
8930.6 0.15847 0.00286
8933.57 0.15831 0.00286
8936.21 0.15816 0.00287
8938.85 0.15802 0.00287
8941.49 0.15787 0.00288
8944.13 0.15773 0.00288
8947.1 0.15757 0.00289
8949.74 0.15742 0.0029
8952.38 0.15728 0.0029
8955.02 0.15714 0.00291
8957.66 0.15699 0.00291
8960.63 0.15683 0.00292
8963.27 0.15669 0.00292
8965.91 0.15654 0.00293
8968.55 0.1564 0.00294
8971.19 0.15626 0.00294
8973.83 0.15611 0.00295
8976.8 0.15596 0.00296
8979.44 0.15581 0.00296
8982.08 0.15567 0.00297
8984.72 0.15553 0.00298
8987.36 0.15539 0.00298
8990.33 0.15523 0.00299
8992.97 0.15509 0.003
8995.61 0.15494 0.003
8998.25 0.1548 0.00301
9000.89 0.15466 0.00302
9003.86 0.1545 0.00302
9006.5 0.15436 0.00303
9009.14 0.15422 0.00304
9011.78 0.15407 0.00305
9014.42 0.15393 0.00305
9017.39 0.15377 0.00306
9020.03 0.15363 0.00307
9022.67 0.15349 0.00307
9025.31 0.15335 0.00308
9027.95 0.1532 0.00309
9030.59 0.15306 0.0031
9033.56 0.1529 0.0031
9036.2 0.15276 0.00311
9038.84 0.15262 0.00312
9041.48 0.15248 0.00313
9044.12 0.15234 0.00313
9047.09 0.15218 0.00314
9049.73 0.15203 0.00315
9052.37 0.15189 0.00316
9055.01 0.15175 0.00317
9057.65 0.15161 0.00317
9060.62 0.15145 0.00318
9063.26 0.15131 0.00319
9065.9 0.15116 0.0032
9068.54 0.15102 0.00321
9071.18 0.15088 0.00322
9073.82 0.15074 0.00322
9076.79 0.15058 0.00323
9079.43 0.15044 0.00324
9082.07 0.15029 0.00325
9084.71 0.15015 0.00326
9087.35 0.15001 0.00326
9090.32 0.14985 0.00327
9092.96 0.14971 0.00328
9095.6 0.14957 0.00329
9098.24 0.14943 0.0033
9100.88 0.14929 0.00331
9103.85 0.14913 0.00332
9106.49 0.14899 0.00333
9109.13 0.14885 0.00334
9111.77 0.14872 0.00335
9114.41 0.14858 0.00336
9117.05 0.14845 0.00337
9120.02 0.14829 0.00339
9122.66 0.14816 0.0034
9125.3 0.14802 0.00341
9127.94 0.14789 0.00342
9130.58 0.14775 0.00343
9133.55 0.1476 0.00344
9136.19 0.14746 0.00346
9138.83 0.14733 0.00347
9141.47 0.14719 0.00348
9144.11 0.14706 0.00349
9147.08 0.14691 0.0035
9149.72 0.14677 0.00352
9152.36 0.14664 0.00353
9155.0 0.1465 0.00354
9157.64 0.14636 0.00355
9160.28 0.14623 0.00357
9163.25 0.14608 0.00358
9165.89 0.14594 0.00359
9168.53 0.14581 0.00361
9171.17 0.14567 0.00362
9173.81 0.14554 0.00363
9176.78 0.14538 0.00364
9179.42 0.14525 0.00366
9182.06 0.14511 0.00367
9184.7 0.14498 0.00368
9187.34 0.14484 0.0037
9190.31 0.14469 0.00371
9192.95 0.14455 0.00372
9195.59 0.14442 0.00374
9198.23 0.14428 0.00375
9200.87 0.14415 0.00376
9203.51 0.14401 0.00378
9206.48 0.14386 0.00379
9209.12 0.14373 0.00381
9211.76 0.14359 0.00382
9214.4 0.14345 0.00383
9217.04 0.14332 0.00385
9220.01 0.14317 0.00386
9222.65 0.14303 0.00388
9225.29 0.1429 0.00389
9227.93 0.14276 0.00391
9230.57 0.14263 0.00392
9233.54 0.14247 0.00393
9236.18 0.14234 0.00395
9238.82 0.1422 0.00396
9241.46 0.14207 0.00398
9244.1 0.14193 0.00399
9246.74 0.1418 0.00401
9249.71 0.14164 0.00402
9252.35 0.14151 0.00404
9254.99 0.14137 0.00405
9257.63 0.14124 0.00407
9260.27 0.1411 0.00408
9263.24 0.14095 0.0041
9265.88 0.14082 0.00411
9268.52 0.14068 0.00413
9271.16 0.14054 0.00414
9273.8 0.14041 0.00416
9276.77 0.14027 0.00418
9279.41 0.14014 0.00419
9282.05 0.14001 0.00421
9284.69 0.13988 0.00423
9287.33 0.13975 0.00425
9289.97 0.13962 0.00426
9292.94 0.13947 0.00428
9295.58 0.13934 0.0043
9298.22 0.13921 0.00432
9300.86 0.13909 0.00434
9303.5 0.13896 0.00436
9306.47 0.13881 0.00438
9309.11 0.13869 0.0044
9311.75 0.13856 0.00442
9314.39 0.13843 0.00444
9317.03 0.1383 0.00445
9320.0 0.13816 0.00448
9322.64 0.13803 0.0045
9325.28 0.1379 0.00452
9327.92 0.13778 0.00454
9330.56 0.13765 0.00456
9333.2 0.13752 0.00458
9336.17 0.13738 0.0046
9338.81 0.13726 0.00462
9341.45 0.13713 0.00464
9344.09 0.13701 0.00466
9346.73 0.13688 0.00468
9349.7 0.13674 0.0047
